t,qw,qx,qy,qz,ax,ay,az,gx,gy,gz
226898,0.74412,0.09473,0.62501,0.2081,-0.78223,0.54834,0.40576,-8.97217,11.84082,-13.5498
226937,0.74519,0.09094,0.6237,0.20989,-0.73438,0.55054,0.41211,-9.52148,9.70459,-13.91602
226983,0.74574,0.08703,0.62297,0.21174,-0.79785,0.56958,0.40283,-7.62939,11.77979,-14.09912
227023,0.74639,0.08347,0.62222,0.21307,-0.77856,0.56055,0.40088,-8.48389,10.43701,-14.5874
227062,0.74699,0.07986,0.62145,0.21462,-0.76514,0.55273,0.3999,-9.46045,11.84082,-13.48877
227103,0.74744,0.07646,0.62072,0.21641,-0.77173,0.5498,0.40063,-8.78906,8.66699,-13.06152
227143,0.74789,0.07367,0.61982,0.21839,-0.75342,0.56079,0.40967,-7.44629,11.96289,-12.20703
227187,0.74848,0.0703,0.61884,0.22023,-0.76318,0.55664,0.41333,-7.38525,10.55908,-12.87842
227228,0.74861,0.06756,0.61846,0.22171,-0.77246,0.54858,0.40967,-5.79834,11.35254,-13.18359
227268,0.74888,0.06442,0.61804,0.2229,-0.77686,0.55566,0.42114,-7.50732,12.08496,-13.97705
227308,0.7491,0.06157,0.61748,0.22453,-0.76245,0.54834,0.41943,-7.50732,13.67188,-13.91602
227348,0.74855,0.05929,0.61784,0.22598,-0.73975,0.57251,0.39087,-6.40869,15.31982,-13.97705
227392,0.74792,0.05595,0.61842,0.22729,-0.82397,0.56104,0.41528,-6.65283,9.76563,-12.93945
227433,0.74806,0.05406,0.61792,0.22865,-0.76074,0.56934,0.41504,-4.45557,15.56396,-11.96289
227473,0.74709,0.05172,0.61873,0.2302,-0.7749,0.56299,0.39453,-7.50732,13.3667,-13.30566
227513,0.74722,0.04956,0.61815,0.23178,-0.74023,0.56421,0.40796,-3.2959,11.47461,-12.08496
227553,0.74556,0.04819,0.61992,0.23268,-0.76074,0.54858,0.37891,-0.97656,23.80371,-13.3667
227597,0.74327,0.04563,0.62288,0.23263,-0.7915,0.59082,0.40356,-2.50244,12.87842,-14.77051
227638,0.74323,0.04386,0.6227,0.23357,-0.76318,0.56787,0.37329,-3.84521,15.74707,-14.83154
227678,0.74214,0.0413,0.6237,0.23483,-0.82056,0.5752,0.38574,-5.31006,11.96289,-11.53564
227718,0.74242,0.04018,0.62289,0.2363,-0.7334,0.58325,0.3855,-4.15039,8.36182,-13.12256
227758,0.74205,0.03887,0.62292,0.23758,-0.78833,0.54883,0.37671,-4.88281,13.12256,-14.4043
227802,0.743,0.03733,0.62147,0.23868,-0.73462,0.53394,0.38062,-3.60107,5.12695,-12.81738
227843,0.7426,0.03632,0.62196,0.2388,-0.76489,0.53833,0.37671,-0.85449,16.60156,-16.54053
227883,0.74245,0.03467,0.62266,0.23765,-0.76563,0.52686,0.37744,0,9.94873,-18.12744
227923,0.7423,0.03356,0.62352,0.23605,-0.75293,0.54419,0.33203,4.02832,17.15088,-19.16504
227962,0.74112,0.03218,0.62606,0.23319,-0.77808,0.50024,0.36792,5.00488,15.31982,-21.97266
228008,0.74097,0.03125,0.62777,0.22916,-0.75903,0.52148,0.36426,8.30078,15.56396,-21.42334
228048,0.73977,0.03044,0.63061,0.22532,-0.71875,0.49365,0.28369,6.46973,14.89258,-22.58301
228087,0.73932,0.02939,0.63267,0.22113,-0.68652,0.44141,0.34131,9.58252,17.21191,-23.4375
228128,0.7392,0.02916,0.6345,0.21625,-0.6189,0.38794,0.3147,13.85498,17.39502,-20.99609
228168,0.73822,0.03109,0.63744,0.21065,-0.54272,0.41455,0.25781,18.55469,15.50293,-23.19336
228212,0.73688,0.03319,0.64128,0.2032,-0.60059,0.44116,0.24072,18.79883,17.45605,-27.771
228253,0.73567,0.03393,0.64504,0.19542,-0.70068,0.448,0.21313,20.69092,17.21191,-31.92139
228293,0.73418,0.03555,0.64952,0.18566,-0.71924,0.45703,0.27979,24.78027,20.01953,-28.80859
228333,0.73336,0.03875,0.65278,0.17657,-0.76538,0.57349,0.23877,24.96338,11.1084,-33.99658
228373,0.7331,0.04043,0.65569,0.1662,-0.8374,0.52002,0.24658,23.86475,12.81738,-30.51758
228417,0.72964,0.04137,0.66162,0.1575,-0.91162,0.56274,0.21826,12.3291,22.33887,-29.72412
228458,0.72935,0.04094,0.66277,0.15407,-0.85425,0.61084,0.2627,5.12695,5.12695,-17.63916
228498,0.72795,0.04284,0.66393,0.1552,-0.97485,0.89233,0.19263,-5.31006,16.60156,-21.30127
228538,0.72327,0.04143,0.66761,0.16151,-0.83862,0.87134,0.20508,-20.50781,29.84619,-3.78418
228578,0.70503,0.042,0.68126,0.18352,-0.94702,1.55249,-0.01904,-51.69678,91.73584,31.73828
228622,0.67531,0.03522,0.69936,0.22414,-1.22363,1.979,-0.06445,-98.20557,87.64648,46.875
228663,0.63366,0.01654,0.71397,0.29168,-1.47998,2.75488,-0.45142,-168.94531,154.90723,108.64258
228703,0.56316,-0.01427,0.72355,0.39465,-1.57324,2.32251,-0.95532,-388.67188,202.88086,178.89404
228743,0.46773,-0.0761,0.70054,0.53039,-2.05664,2.0957,-1.16187,-453.18604,217.16309,194.03076
228783,0.34709,-0.15634,0.64909,0.65605,-1.5979,1.04785,-1.00293,-442.19971,299.31641,167.05322
228827,0.19904,-0.26161,0.61126,0.71758,-1.26099,0.96069,-1.25024,-312.19482,357.42188,122.7417
228868,0.05509,-0.35602,0.54725,0.75323,-1.08716,-0.41577,-0.67871,-498.29102,285.7666,105.40771
228908,-0.05535,-0.38352,0.42305,0.81701,0.50488,-1.08911,-0.78223,-342.59033,113.58643,102.53906
228947,-0.16947,-0.41483,0.37754,0.80826,-0.45752,0.9978,-0.94263,-275.81787,255.24902,170.8374
228988,-0.26464,-0.451,0.30112,0.79531,-0.28979,-0.39648,-0.84863,-235.22949,181.09131,101.62354
229028,-0.36136,-0.49154,0.24,0.75289,-0.24097,-0.17017,-0.61426,-253.72314,258.97217,174.80469
229072,-0.46759,-0.5267,0.16454,0.68811,-0.11328,0.76245,-0.47388,-243.10303,254.3335,153.44238
229113,-0.54511,-0.5439,0.10145,0.62719,-0.27075,0.18188,-0.43115,-281.37207,193.0542,127.62451
229153,-0.62241,-0.54791,0.02841,0.55518,-0.02344,0.0918,-0.48291,-238.22021,263.06152,159.97314
229193,-0.68888,-0.56401,-0.04465,0.44941,-0.33594,0.86646,-0.84839,-244.20166,312.01172,166.87012
229233,-0.7509,-0.54336,-0.12109,0.35054,-0.10327,0.74414,-1.04028,-303.10059,211.66992,119.62891
229277,-0.79694,-0.51059,-0.21395,0.23462,-1.37427,1.63794,-1.25537,-272.76611,323.42529,98.57178
229318,-0.8078,-0.45859,-0.3436,0.12541,-3.07886,0.90161,-0.79004,-278.86963,420.59326,14.89258
229358,-0.76663,-0.41734,-0.48301,0.03781,-3.18018,0.51855,-1.01196,-173.52295,483.27637,-13.42773
229398,-0.71539,-0.36572,-0.59161,-0.03297,-3.10522,0.06519,-0.36597,-170.41016,241.88232,-36.43799
229438,-0.70416,-0.31413,-0.63165,-0.05584,-1.19458,-0.21313,-0.2627,-100.46387,134.15527,-39.18457
229482,-0.6727,-0.27711,-0.67955,-0.07437,-1.12598,-0.03687,-0.03516,-40.46631,138.30566,-28.13721
229523,-0.65208,-0.25843,-0.70639,-0.07517,-0.98657,0.22119,-0.06494,0,68.11523,-34.24072
229563,-0.64463,-0.24835,-0.71783,-0.06427,-0.74048,0.24658,-0.1355,16.8457,24.71924,-38.51318
229603,-0.636,-0.24058,-0.729,-0.05308,-0.88745,0.22949,-0.28809,10.31494,27.28271,-35.21729
229643,-0.63309,-0.23351,-0.73468,-0.03937,-1.01392,0.43701,-0.30347,19.53125,-13.3667,-38.33008
229687,-0.63602,-0.227,-0.73463,-0.02988,-1.03174,0.58203,-0.27344,-4.5166,-18.73779,-32.22656
229728,-0.6411,-0.22014,-0.73246,-0.02553,-0.88843,0.50464,-0.27539,-5.49316,-16.6626,-30.2124
229768,-0.64303,-0.21468,-0.73251,-0.02189,-0.79541,0.42896,-0.22949,-4.57764,-10.0708,-24.84131
229808,-0.64506,-0.21089,-0.73184,-0.02122,-0.68823,0.41235,-0.20068,-9.76563,-7.44629,-15.38086
229848,-0.64519,-0.20872,-0.73226,-0.02424,-0.69092,0.42139,-0.20972,-7.56836,2.19727,-12.3291
229892,-0.6441,-0.20685,-0.73368,-0.02636,-0.77173,0.37598,-0.17407,-3.11279,2.13623,-9.39941
229933,-0.6418,-0.20584,-0.73595,-0.02699,-0.87451,0.37207,-0.16479,-1.95313,14.22119,-8.42285
229973,-0.63845,-0.20344,-0.73948,-0.02819,-0.88062,0.38623,-0.15894,-3.78418,12.93945,-11.23047
230013,-0.63597,-0.19979,-0.74252,-0.03029,-0.84521,0.41699,-0.18604,-12.93945,13.91602,-15.625
230057,-0.63311,-0.19323,-0.74655,-0.03355,-0.92554,0.48901,-0.19702,-12.08496,11.84082,-18.49365
230098,-0.63148,-0.18742,-0.74926,-0.03676,-0.85083,0.42261,-0.19019,-14.5874,14.64844,-14.28223
230138,-0.62811,-0.1834,-0.7529,-0.04022,-0.89551,0.39771,-0.19141,-7.56836,14.46533,-8.8501
230178,-0.62703,-0.18122,-0.75421,-0.04228,-0.86377,0.39502,-0.17871,-6.5918,3.11279,-7.69043
230218,-0.625,-0.1794,-0.75614,-0.04556,-0.854,0.42114,-0.18652,-6.28662,18.79883,-6.16455
230262,-0.62074,-0.17711,-0.75994,-0.04932,-0.88062,0.44043,-0.16602,-8.17871,13.24463,-8.97217
230303,-0.61902,-0.1738,-0.76182,-0.05354,-0.83618,0.42627,-0.18604,-11.53564,13.18359,-9.52148
230343,-0.61565,-0.17021,-0.76507,-0.05743,-0.86963,0.42896,-0.19141,-8.48389,16.41846,-11.53564
230343,-0.61565,-0.17021,-0.76507,-0.05743,-0.86963,0.42896,-0.19141,-8.48389,16.41846,-11.53564
230343,-0.61565,-0.17021,-0.76507,-0.05743,-0.86963,0.42896,-0.19141,-8.48389,16.41846,-11.53564
230343,-0.61565,-0.17021,-0.76507,-0.05743,-0.86963,0.42896,-0.19141,-8.48389,16.41846,-11.53564
230343,-0.61565,-0.17021,-0.76507,-0.05743,-0.86963,0.42896,-0.19141,-8.48389,16.41846,-11.53564
230343,-0.61565,-0.17021,-0.76507,-0.05743,-0.86963,0.42896,-0.19141,-8.48389,16.41846,-11.53564
230343,-0.61565,-0.17021,-0.76507,-0.05743,-0.86963,0.42896,-0.19141,-8.48389,16.41846,-11.53564
230343,-0.61565,-0.17021,-0.76507,-0.05743,-0.86963,0.42896,-0.19141,-8.48389,16.41846,-11.53564
230343,-0.61565,-0.17021,-0.76507,-0.05743,-0.86963,0.42896,-0.19141,-8.48389,16.41846,-11.53564
230343,-0.61565,-0.17021,-0.76507,-0.05743,-0.86963,0.42896,-0.19141,-8.48389,16.41846,-11.53564
230343,-0.61565,-0.17021,-0.76507,-0.05743,-0.86963,0.42896,-0.19141,-8.48389,16.41846,-11.53564
230343,-0.61565,-0.17021,-0.76507,-0.05743,-0.86963,0.42896,-0.19141,-8.48389,16.41846,-11.53564
230343,-0.61565,-0.17021,-0.76507,-0.05743,-0.86963,0.42896,-0.19141,-8.48389,16.41846,-11.53564
230343,-0.61565,-0.17021,-0.76507,-0.05743,-0.86963,0.42896,-0.19141,-8.48389,16.41846,-11.53564
230343,-0.61565,-0.17021,-0.76507,-0.05743,-0.86963,0.42896,-0.19141,-8.48389,16.41846,-11.53564
230343,-0.61565,-0.17021,-0.76507,-0.05743,-0.86963,0.42896,-0.19141,-8.48389,16.41846,-11.53564
230343,-0.61565,-0.17021,-0.76507,-0.05743,-0.86963,0.42896,-0.19141,-8.48389,16.41846,-11.53564
230343,-0.61565,-0.17021,-0.76507,-0.05743,-0.86963,0.42896,-0.19141,-8.48389,16.41846,-11.53564
230343,-0.61565,-0.17021,-0.76507,-0.05743,-0.86963,0.42896,-0.19141,-8.48389,16.41846,-11.53564
230343,-0.61565,-0.17021,-0.76507,-0.05743,-0.86963,0.42896,-0.19141,-8.48389,16.41846,-11.53564
230343,-0.61565,-0.17021,-0.76507,-0.05743,-0.86963,0.42896,-0.19141,-8.48389,16.41846,-11.53564
230343,-0.61565,-0.17021,-0.76507,-0.05743,-0.86963,0.42896,-0.19141,-8.48389,16.41846,-11.53564
230343,-0.61565,-0.17021,-0.76507,-0.05743,-0.86963,0.42896,-0.19141,-8.48389,16.41846,-11.53564