t,qw,qx,qy,qz,ax,ay,az,gx,gy,gz
170758,-0.12663,0.33291,-0.84246,0.40003,-0.73755,-0.65771,-1.06006,-80.56641,-111.51123,-2.62451
170798,-0.16879,0.35215,-0.85184,0.34424,-0.77295,-0.68237,-1.12012,-118.16406,-175.59814,16.47949
170837,-0.2117,0.36826,-0.86035,0.27568,-0.67798,-0.75269,-1.15991,-135.49805,-153.56445,41.07666
170877,-0.25248,0.37594,-0.86644,0.20208,-0.94312,-0.7439,-1.03564,-151.61133,-185.85205,56.21338
170923,-0.30065,0.38065,-0.86609,0.10597,-1.32422,-1.07251,-1.31641,-191.71143,-189.81934,96.67969
170963,-0.35271,0.3635,-0.86022,0.011,-1.25073,-1.28882,-1.01489,-175.23193,-242.73682,166.38184
171003,-0.40406,0.32777,-0.84771,-0.08551,-1.18237,-1.31494,-0.77124,-157.89795,-222.16797,215.02686
171043,-0.43737,0.27015,-0.83748,-0.17601,-1.43018,-1.21973,-0.77344,-135.00977,-154.78516,279.29688
171083,-0.45297,0.20101,-0.82708,-0.25881,-1.4519,-1.13867,-0.53467,-120.30029,-148.01025,301.75781
171123,-0.46786,0.12128,-0.80467,-0.3399,-1.27612,-1.07178,-0.36694,-105.71289,-177.85645,317.44385
171163,-0.47683,0.03733,-0.77769,-0.40382,-0.8064,-0.47559,-0.1228,-57.86133,-134.46045,307.25098
171203,-0.46747,-0.0373,-0.74767,-0.46659,-1.10498,-0.3562,0.10107,-99.79248,-92.83447,315.49072
171243,-0.45092,-0.10988,-0.70677,-0.53075,-0.81616,-0.10669,0.14624,-80.26123,-102.66113,323.85254
171283,-0.42254,-0.17714,-0.65877,-0.59391,-0.81958,-0.33984,0.37598,-79.46777,-64.51416,337.34131
171323,-0.3817,-0.2476,-0.6052,-0.65066,-0.46924,-0.29907,0.5166,-58.10547,-88.86719,346.98486
171363,-0.33151,-0.32063,-0.54014,-0.70155,-0.25244,-0.3855,0.50806,-32.71484,-77.14844,355.65186
171403,-0.27467,-0.39708,-0.47357,-0.73433,-0.15771,-0.84204,0.43408,-15.80811,-168.45703,322.5708
171443,-0.21678,-0.49306,-0.4056,-0.73622,1.02173,-0.6936,0.00049,54.38232,-151.55029,278.50342
171483,-0.15464,-0.56226,-0.36463,-0.72362,2.67114,-0.20923,-0.62378,41.44287,-65.00244,134.09424
171523,-0.13096,-0.57165,-0.36642,-0.72002,1.698,0.6333,-0.00391,58.89893,56.27441,-29.47998
171563,-0.12761,-0.56104,-0.38941,-0.71689,0.28784,0.85742,1.01685,69.45801,-41.1377,-55.78613
171603,-0.13382,-0.53883,-0.40034,-0.72671,0.16846,0.79028,0.11401,-5.37109,78.30811,3.479
171643,-0.13396,-0.5319,-0.39864,-0.7327,0.82813,0.51782,0.16431,-32.71484,-3.96729,9.94873
171683,-0.13264,-0.532,-0.38504,-0.74011,1.01221,0.63477,0.39941,-22.94922,6.46973,3.41797
171723,-0.13886,-0.52512,-0.37984,-0.74654,0.93652,0.5354,0.41089,-15.07568,16.60156,-38.94043
171763,-0.14379,-0.51123,-0.38237,-0.75392,0.57031,0.66626,0.27881,-2.80762,41.93115,-26.12305
171803,-0.14966,-0.49862,-0.38636,-0.75917,0.56812,0.68018,0.2937,-11.53564,10.00977,-24.16992
171842,-0.15143,-0.49234,-0.3833,-0.76445,0.68701,0.68042,0.34937,-10.37598,21.78955,-1.09863
171882,-0.15183,-0.48697,-0.37834,-0.77026,0.85156,0.57056,0.30664,-16.05225,13.48877,-9.64355
171928,-0.15285,-0.48085,-0.37338,-0.7763,0.80054,0.55859,0.3855,-13.06152,12.51221,-15.31982
171968,-0.15484,-0.47422,-0.37037,-0.78141,0.7229,0.60229,0.32349,-10.74219,17.94434,-15.07568
172008,-0.15651,-0.46692,-0.36796,-0.78659,0.60742,0.61255,0.31372,-12.146,19.47021,-9.64355
172048,-0.15926,-0.46389,-0.36428,-0.78954,0.77197,0.62476,0.37085,-12.69531,1.15967,-11.04736
172088,-0.15997,-0.46,-0.36076,-0.79328,0.74194,0.62842,0.33984,-9.39941,24.84131,-7.08008
172128,-0.16034,-0.45468,-0.35873,-0.79718,0.72168,0.59863,0.37085,-8.36182,4.39453,-13.24463
172168,-0.16172,-0.45264,-0.3565,-0.79906,0.76025,0.56665,0.34375,-1.15967,16.17432,-11.59668
172208,-0.16142,-0.4467,-0.35567,-0.80283,0.6897,0.62451,0.40869,-6.53076,10.55908,-9.76563
172248,-0.16192,-0.44415,-0.35232,-0.80561,0.77612,0.54541,0.31494,-11.35254,11.71875,-8.8501
172288,-0.16207,-0.44185,-0.34921,-0.8082,0.75513,0.58984,0.35986,-5.85938,10.55908,-11.53564
172328,-0.16476,-0.43702,-0.34787,-0.81085,0.76636,0.58838,0.34326,-9.27734,19.83643,-18.9209
172368,-0.16729,-0.43247,-0.3468,-0.81323,0.74023,0.60449,0.34985,-8.42285,10.43701,-16.6626
172408,-0.17046,-0.42801,-0.34648,-0.81506,0.698,0.62231,0.35498,-10.19287,15.31982,-18.98193
172448,-0.17392,-0.42414,-0.34447,-0.8172,0.75684,0.58936,0.35229,-11.59668,9.15527,-18.85986
172488,-0.17751,-0.42123,-0.34285,-0.81862,0.71997,0.64136,0.37231,-7.93457,8.30078,-18.24951
172528,-0.18038,-0.41777,-0.34114,-0.82047,0.72705,0.61353,0.35229,-10.19287,12.51221,-13.61084
172568,-0.18276,-0.41462,-0.33952,-0.82222,0.73901,0.65576,0.37622,-8.17871,8.30078,-16.29639
172608,-0.18526,-0.41131,-0.33849,-0.82375,0.70825,0.64966,0.31494,-10.98633,17.63916,-13.73291
172648,-0.18725,-0.40841,-0.33667,-0.82548,0.73901,0.60522,0.34961,-10.86426,10.0708,-13.61084
172688,-0.18914,-0.4058,-0.3358,-0.82669,0.74927,0.64575,0.39282,-10.00977,9.39941,-14.95361
172728,-0.19184,-0.4034,-0.33257,-0.82855,0.74243,0.58765,0.36865,-11.90186,12.45117,-14.5874
172768,-0.19337,-0.39962,-0.33132,-0.83052,0.70435,0.64282,0.38525,-9.0332,13.61084,-15.44189
172808,-0.19611,-0.39704,-0.32912,-0.83199,0.72021,0.61475,0.3916,-14.46533,9.8877,-15.44189
172847,-0.19849,-0.39502,-0.32642,-0.83345,0.68628,0.65356,0.41284,-10.25391,10.98633,-12.20703
172887,-0.20107,-0.39355,-0.3246,-0.83424,0.71191,0.63013,0.34326,-13.5498,7.99561,-12.26807
172933,-0.20333,-0.39235,-0.32174,-0.83536,0.69604,0.58374,0.37646,-9.82666,7.50732,-13.91602
172973,-0.20513,-0.39152,-0.32051,-0.83578,0.72534,0.61084,0.35791,-6.71387,11.53564,-13.48877
173013,-0.20641,-0.39009,-0.31958,-0.83649,0.72583,0.56982,0.34937,-10.00977,9.94873,-14.70947
173053,-0.20862,-0.38855,-0.3183,-0.83715,0.71777,0.62817,0.3894,-6.89697,10.86426,-17.33398
173093,-0.21103,-0.38598,-0.31797,-0.83786,0.7041,0.61426,0.35352,-11.16943,16.60156,-16.17432
173133,-0.21274,-0.38334,-0.31715,-0.83895,0.69678,0.64087,0.37476,-9.94873,12.146,-14.16016
173173,-0.21499,-0.38158,-0.31581,-0.83968,0.72534,0.61841,0.38159,-10.19287,13.18359,-14.4043
173213,-0.21663,-0.3795,-0.31525,-0.84042,0.71704,0.63965,0.35449,-10.00977,13.00049,-16.11328
173253,-0.2187,-0.37766,-0.31396,-0.84119,0.69727,0.61572,0.40625,-7.99561,10.62012,-15.25879
173293,-0.22054,-0.37591,-0.31274,-0.84195,0.7356,0.60547,0.34668,-10.55908,15.38086,-15.07568
173333,-0.22198,-0.37441,-0.3115,-0.8427,0.71387,0.62671,0.40381,-8.48389,9.15527,-13.3667
173373,-0.22375,-0.37343,-0.31061,-0.84299,0.72925,0.63232,0.37305,-8.36182,12.26807,-15.74707
173413,-0.2251,-0.37239,-0.31003,-0.8433,0.71533,0.63062,0.35498,-8.91113,11.41357,-13.06152
173453,-0.22667,-0.37144,-0.30955,-0.84348,0.6875,0.63745,0.36475,-7.62939,11.41357,-14.52637
173493,-0.2287,-0.37097,-0.30824,-0.84362,0.74634,0.61499,0.36328,-10.86426,9.46045,-14.34326
173533,-0.22984,-0.36937,-0.30667,-0.84458,0.66821,0.63379,0.38989,-11.04736,13.61084,-13.18359
173573,-0.23253,-0.36929,-0.30429,-0.84474,0.74707,0.61548,0.38477,-13.85498,8.42285,-14.52637
173613,-0.23413,-0.36828,-0.30244,-0.84541,0.70142,0.64478,0.396,-10.19287,13.48877,-13.00049
173653,-0.23597,-0.36681,-0.30135,-0.84592,0.6814,0.62866,0.43481,-10.00977,6.89697,-12.39014
173693,-0.23765,-0.36724,-0.29912,-0.84606,0.73193,0.59424,0.3667,-11.2915,13.97705,-12.69531
173733,-0.23916,-0.36686,-0.29755,-0.84635,0.72607,0.60449,0.38452,-10.98633,8.30078,-14.16016
173773,-0.24134,-0.36651,-0.29509,-0.84674,0.70483,0.58374,0.38428,-13.3667,13.30566,-14.03809
173812,-0.24342,-0.36493,-0.29294,-0.84758,0.69849,0.57837,0.37329,-10.92529,13.42773,-15.44189
173852,-0.24573,-0.36282,-0.29233,-0.84803,0.66968,0.63281,0.39087,-12.57324,13.79395,-18.73779
173852,-0.24573,-0.36282,-0.29233,-0.84803,0.66968,0.63281,0.39087,-12.57324,13.79395,-18.73779
173852,-0.24573,-0.36282,-0.29233,-0.84803,0.66968,0.63281,0.39087,-12.57324,13.79395,-18.73779
173852,-0.24573,-0.36282,-0.29233,-0.84803,0.66968,0.63281,0.39087,-12.57324,13.79395,-18.73779
173852,-0.24573,-0.36282,-0.29233,-0.84803,0.66968,0.63281,0.39087,-12.57324,13.79395,-18.73779
173852,-0.24573,-0.36282,-0.29233,-0.84803,0.66968,0.63281,0.39087,-12.57324,13.79395,-18.73779
173852,-0.24573,-0.36282,-0.29233,-0.84803,0.66968,0.63281,0.39087,-12.57324,13.79395,-18.73779
173852,-0.24573,-0.36282,-0.29233,-0.84803,0.66968,0.63281,0.39087,-12.57324,13.79395,-18.73779
173852,-0.24573,-0.36282,-0.29233,-0.84803,0.66968,0.63281,0.39087,-12.57324,13.79395,-18.73779
173852,-0.24573,-0.36282,-0.29233,-0.84803,0.66968,0.63281,0.39087,-12.57324,13.79395,-18.73779
173852,-0.24573,-0.36282,-0.29233,-0.84803,0.66968,0.63281,0.39087,-12.57324,13.79395,-18.73779
173852,-0.24573,-0.36282,-0.29233,-0.84803,0.66968,0.63281,0.39087,-12.57324,13.79395,-18.73779
173852,-0.24573,-0.36282,-0.29233,-0.84803,0.66968,0.63281,0.39087,-12.57324,13.79395,-18.73779
173852,-0.24573,-0.36282,-0.29233,-0.84803,0.66968,0.63281,0.39087,-12.57324,13.79395,-18.73779
173852,-0.24573,-0.36282,-0.29233,-0.84803,0.66968,0.63281,0.39087,-12.57324,13.79395,-18.73779
173852,-0.24573,-0.36282,-0.29233,-0.84803,0.66968,0.63281,0.39087,-12.57324,13.79395,-18.73779
173852,-0.24573,-0.36282,-0.29233,-0.84803,0.66968,0.63281,0.39087,-12.57324,13.79395,-18.73779
173852,-0.24573,-0.36282,-0.29233,-0.84803,0.66968,0.63281,0.39087,-12.57324,13.79395,-18.73779
173852,-0.24573,-0.36282,-0.29233,-0.84803,0.66968,0.63281,0.39087,-12.57324,13.79395,-18.73779
173852,-0.24573,-0.36282,-0.29233,-0.84803,0.66968,0.63281,0.39087,-12.57324,13.79395,-18.73779
173852,-0.24573,-0.36282,-0.29233,-0.84803,0.66968,0.63281,0.39087,-12.57324,13.79395,-18.73779
173852,-0.24573,-0.36282,-0.29233,-0.84803,0.66968,0.63281,0.39087,-12.57324,13.79395,-18.73779
173852,-0.24573,-0.36282,-0.29233,-0.84803,0.66968,0.63281,0.39087,-12.57324,13.79395,-18.73779
173852,-0.24573,-0.36282,-0.29233,-0.84803,0.66968,0.63281,0.39087,-12.57324,13.79395,-18.73779
173852,-0.24573,-0.36282,-0.29233,-0.84803,0.66968,0.63281,0.39087,-12.57324,13.79395,-18.73779
173852,-0.24573,-0.36282,-0.29233,-0.84803,0.66968,0.63281,0.39087,-12.57324,13.79395,-18.73779
173852,-0.24573,-0.36282,-0.29233,-0.84803,0.66968,0.63281,0.39087,-12.57324,13.79395,-18.73779
173852,-0.24573,-0.36282,-0.29233,-0.84803,0.66968,0.63281,0.39087,-12.57324,13.79395,-18.73779
173852,-0.24573,-0.36282,-0.29233,-0.84803,0.66968,0.63281,0.39087,-12.57324,13.79395,-18.73779
173852,-0.24573,-0.36282,-0.29233,-0.84803,0.66968,0.63281,0.39087,-12.57324,13.79395,-18.73779
173852,-0.24573,-0.36282,-0.29233,-0.84803,0.66968,0.63281,0.39087,-12.57324,13.79395,-18.73779
173852,-0.24573,-0.36282,-0.29233,-0.84803,0.66968,0.63281,0.39087,-12.57324,13.79395,-18.73779
173852,-0.24573,-0.36282,-0.29233,-0.84803,0.66968,0.63281,0.39087,-12.57324,13.79395,-18.73779
173852,-0.24573,-0.36282,-0.29233,-0.84803,0.66968,0.63281,0.39087,-12.57324,13.79395,-18.73779
173852,-0.24573,-0.36282,-0.29233,-0.84803,0.66968,0.63281,0.39087,-12.57324,13.79395,-18.73779
173852,-0.24573,-0.36282,-0.29233,-0.84803,0.66968,0.63281,0.39087,-12.57324,13.79395,-18.73779
173852,-0.24573,-0.36282,-0.29233,-0.84803,0.66968,0.63281,0.39087,-12.57324,13.79395,-18.73779
173852,-0.24573,-0.36282,-0.29233,-0.84803,0.66968,0.63281,0.39087,-12.57324,13.79395,-18.73779
173852,-0.24573,-0.36282,-0.29233,-0.84803,0.66968,0.63281,0.39087,-12.57324,13.79395,-18.73779
173852,-0.24573,-0.36282,-0.29233,-0.84803,0.66968,0.63281,0.39087,-12.57324,13.79395,-18.73779
173852,-0.24573,-0.36282,-0.29233,-0.84803,0.66968,0.63281,0.39087,-12.57324,13.79395,-18.73779
173852,-0.24573,-0.36282,-0.29233,-0.84803,0.66968,0.63281,0.39087,-12.57324,13.79395,-18.73779
173852,-0.24573,-0.36282,-0.29233,-0.84803,0.66968,0.63281,0.39087,-12.57324,13.79395,-18.73779
173852,-0.24573,-0.36282,-0.29233,-0.84803,0.66968,0.63281,0.39087,-12.57324,13.79395,-18.73779
173852,-0.24573,-0.36282,-0.29233,-0.84803,0.66968,0.63281,0.39087,-12.57324,13.79395,-18.73779
173852,-0.24573,-0.36282,-0.29233,-0.84803,0.66968,0.63281,0.39087,-12.57324,13.79395,-18.73779
173852,-0.24573,-0.36282,-0.29233,-0.84803,0.66968,0.63281,0.39087,-12.57324,13.79395,-18.73779
173852,-0.24573,-0.36282,-0.29233,-0.84803,0.66968,0.63281,0.39087,-12.57324,13.79395,-18.73779
173852,-0.24573,-0.36282,-0.29233,-0.84803,0.66968,0.63281,0.39087,-12.57324,13.79395,-18.73779
173852,-0.24573,-0.36282,-0.29233,-0.84803,0.66968,0.63281,0.39087,-12.57324,13.79395,-18.73779
173852,-0.24573,-0.36282,-0.29233,-0.84803,0.66968,0.63281,0.39087,-12.57324,13.79395,-18.73779
173852,-0.24573,-0.36282,-0.29233,-0.84803,0.66968,0.63281,0.39087,-12.57324,13.79395,-18.73779
173852,-0.24573,-0.36282,-0.29233,-0.84803,0.66968,0.63281,0.39087,-12.57324,13.79395,-18.73779
173852,-0.24573,-0.36282,-0.29233,-0.84803,0.66968,0.63281,0.39087,-12.57324,13.79395,-18.73779
173852,-0.24573,-0.36282,-0.29233,-0.84803,0.66968,0.63281,0.39087,-12.57324,13.79395,-18.73779